Folder: option_data_downloader/quandl/option_iv_rank_by_symbols

File: TGA.csv
date,hv10,hv10_rank,phv10,phv10_rank,ivcall10,ivcall10_rank,ivput10,ivput10_rank,hv180,hv180_rank,phv180,phv180_rank,ivcall1080,ivcall1080_rank,ivput1080,ivput1080_rank
2022-10-13,0.8274,93,0.829,95,0.8219,93,3.0959,99,0.7261,92,0.6583,87,0.9082,99,2.5229,100
2022-09-02,0.5777,73,0.4923,64,0.8547,95,1.3853,98,0.7086,89,0.65,86,1.094,100,0.9871,97
2022-08-05,1.1649,99,0.8985,97,0.9276,97,1.3363,97,0.7226,91,0.6694,88,0.905,99,0.9102,96
2022-07-08,0.7994,91,0.7793,93,0.9237,97,1.9523,98,0.6908,87,0.6527,86,0.7423,93,1.4194,98
2022-06-08,0.179,5,0.5162,69,0.6494,72,2.4726,99,0.6439,83,0.6158,81,0.6132,72,1.2144,98
2022-05-10,0.8209,92,0.7048,90,1.1751,100,0.8919,95,0.6851,87,0.6539,87,1.0486,100,0.9496,96
2015-06-09,0.2582,14,0.3161,18,0.666,75,0.626,68,0.6067,78,0.6036,80,0.6469,80,0.626,75
2015-05-08,0.7771,90,0.5865,80,0.48,23,0.7002,80,0.6633,85,0.6505,86,0.48,23,0.6877,84
2015-04-08,0.5593,71,0.5397,73,0.6027,60,0.8091,91,0.661,85,0.6552,87,0.6027,68,0.8091,95
2015-03-09,0.4664,57,0.4507,54,0.823,93,0.6283,69,0.6271,81,0.6245,82,0.823,97,0.6283,75
2015-01-15,0.6689,82,0.8514,96,0.9786,98,0.6956,80,0.558,69,0.583,79,0.9786,100,0.6956,85
2014-09-30,0.4394,51,0.3881,37,0.4467,12,0.4629,18,0.377,3,0.3566,4,0.4012,3,0.4629,16
2014-08-15,0.4648,56,0.6428,86,0.4257,7,0.4371,9,0.3788,4,0.3762,10,0.3754,1,0.4416,7
2014-07-17,0.2749,17,0.2658,7,0.5451,46,0.3811,1,0.396,11,0.3883,16,0.467,18,0.3811,1
2014-05-21,0.2738,16,0.4318,49,0.446,12,0.4312,7,0.4051,15,0.3991,22,0.448,10,0.4312,5
2014-04-23,0.5201,66,0.3703,32,0.4015,4,0.3991,2,0.3846,6,0.3847,14,0.4015,3,0.3587,1
2014-02-26,0.3319,28,0.3288,21,0.53,41,0.4247,6,0.3805,5,0.3656,6,0.482,24,0.4247,4
2014-01-28,0.501,63,0.4363,50,0.4605,16,0.4537,14,0.3999,12,0.3672,7,0.4538,12,0.4537,12
2013-12-27,0.3612,34,0.3169,18,0.5065,34,0.499,31,0.3938,10,0.3702,8,0.4304,5,0.4766,22
2013-11-27,0.2295,10,0.2609,6,0.4458,11,0.464,19,0.4365,32,0.3956,20,0.4441,8,0.4402,6
2013-10-30,0.2377,11,0.2716,8,0.5016,32,0.4431,10,0.4354,32,0.3923,19,0.4488,10,0.4567,14
2013-10-02,0.2424,12,0.3029,15,0.4272,7,0.3896,1,0.454,39,0.4012,23,0.4415,8,0.4371,5
2013-09-04,0.468,57,0.3453,25,0.4796,23,0.462,18,0.4561,41,0.397,21,0.4647,17,0.4672,19
2013-08-06,0.6456,81,0.5978,81,0.5014,32,0.4899,27,0.4641,44,0.398,21,0.5024,33,0.4803,24
2013-07-09,0.3948,43,0.4685,57,0.472,20,0.5322,40,0.4593,42,0.3936,19,0.5041,34,0.4914,28
2013-06-10,0.2739,16,0.3273,20,0.5353,43,0.4612,17,0.409,16,0.3526,3,0.4661,17,0.4612,16
2013-05-10,0.3886,41,0.3672,31,0.4258,7,0.4925,28,0.4144,19,0.3576,4,0.4658,17,0.4533,12
2013-04-12,0.3959,43,0.3652,30,0.4469,12,0.4969,30,0.3975,11,0.3515,2,0.4469,10,0.4469,9
2013-03-13,0.3949,43,0.4223,46,0.4388,9,0.4519,13,0.405,15,0.3564,4,0.4364,6,0.4166,3
2013-02-12,0.4007,44,0.2991,14,0.4585,16,0.4611,17,0.4161,20,0.3586,4,0.4458,9,0.4661,18
2013-01-14,0.6589,82,0.5466,74,0.4715,20,0.4926,28,0.4468,36,0.3865,15,0.5133,37,0.4913,28
2012-12-13,0.459,55,0.4056,42,0.5744,53,0.5104,34,0.5131,56,0.4168,27,0.5074,36,0.5073,35
2012-11-14,0.3159,25,0.3476,26,0.494,30,0.4036,2,0.5112,56,0.427,30,0.495,30,0.4701,20
2012-10-15,0.1129,1,0.1825,1,0.5448,45,0.4521,14,0.5347,62,0.455,46,0.4901,27,0.4596,15
2012-09-17,0.4245,49,0.3859,36,0.4756,21,0.4622,18,0.5461,65,0.4598,48,0.486,25,0.4812,24
2012-08-17,0.4146,47,0.4935,65,0.4898,27,0.4773,23,0.5366,63,0.4516,44,0.4648,17,0.5357,43
2012-07-20,0.5076,64,0.3927,38,0.5525,47,0.5704,51,0.5122,56,0.4334,34,0.5768,59,0.5539,48
2012-06-21,0.736,88,0.6467,86,0.6548,73,0.5972,60,0.4927,52,0.4215,28,0.6397,79,0.6146,72
2012-05-23,0.4764,59,0.4307,49,0.4952,30,0.5896,57,0.4787,49,0.4105,25,0.5046,34,0.5376,43
2012-04-25,0.3024,22,0.3009,15,0.4416,10,0.4611,17,0.4812,50,0.3903,17,0.4366,6,0.4677,19
2012-03-27,0.3405,30,0.2714,8,0.4046,4,0.423,6,0.5116,56,0.4624,50,0.445,9,0.441,7
2012-02-28,0.3883,41,0.2862,12,0.4419,10,0.4762,23,0.5697,71,0.4961,66,0.4581,14,0.5003,32
2012-01-30,0.3607,34,0.359,28,0.5424,45,0.5814,54,0.6289,82,0.5488,75,0.5043,34,0.5336,42
2011-12-29,0.6069,77,0.4274,48,0.5477,46,0.5442,42,0.6247,81,0.5438,73,0.6023,68,0.6022,67
2011-11-30,0.7647,90,0.4347,50,0.6202,64,0.7091,82,0.6213,80,0.5441,73,0.637,78,0.6518,79
2011-11-01,0.7211,87,0.6,81,0.6838,78,0.7013,81,0.6276,81,0.5444,73,0.6169,74,0.6554,80
2011-10-04,0.7329,88,0.6997,89,0.8987,96,0.9324,95,0.5946,76,0.4949,66,0.7251,91,0.7787,93
2011-09-06,0.4845,60,0.4206,46,0.703,82,0.7357,85,0.5305,61,0.4569,47,0.6269,76,0.7067,87
2011-08-08,0.637,80,0.6774,88,0.8267,93,0.9,95,0.4851,50,0.4205,28,0.6712,84,0.6233,74
2011-07-11,0.586,74,0.4216,46,0.5615,50,0.5996,61,0.5079,55,0.4283,31,0.5664,55,0.5685,54
2011-06-10,0.3571,34,0.4195,45,0.5643,51,0.5607,47,0.5243,59,0.4368,36,0.553,50,0.5546,49
2011-05-12,0.7087,86,0.4429,52,0.5366,43,0.557,46,0.5486,66,0.468,53,0.5522,49,0.5733,56
2011-04-13,0.3618,34,0.3515,27,0.5442,45,0.5369,41,0.5909,76,0.4855,63,0.572,57,0.5613,51
2011-03-16,0.3173,25,0.5318,71,0.6922,80,0.7216,83,0.615,79,0.4947,66,0.6441,80,0.622,73
2011-02-15,0.796,91,0.5829,79,0.5466,46,0.5511,44,0.6038,77,0.4769,57,0.5624,53,0.5781,57
2011-01-18,0.3933,42,0.2193,2,0.6494,72,0.5531,45,0.5438,64,0.4373,36,0.6122,72,0.5881,62
2010-12-17,0.865,94,0.7526,92,0.602,60,0.5809,54,0.5507,66,0.4484,42,0.6216,75,0.6187,73
2010-11-18,0.797,91,0.5542,75,0.5703,52,0.5913,57,0.498,53,0.4004,23,0.5448,47,0.5362,43
2010-10-20,0.7714,90,0.5132,68,0.5084,34,0.4648,19,0.449,37,0.4225,28,0.4911,28,0.487,27
2010-09-22,0.6115,78,0.4201,46,0.4927,28,0.4082,3,0.4194,23,0.4223,28,0.454,12,0.4449,8
2010-08-23,0.3268,27,0.2195,2,0.4686,19,0.4511,13,0.4481,37,0.4677,53,0.4686,19,0.4657,18
2010-07-22,0.4031,44,0.3371,23,0.509,35,0.5279,38,0.4655,44,0.4925,65,0.5167,38,0.5279,41
2010-06-22,0.2052,7,0.3262,20,0.4988,31,0.473,21,0.4557,40,0.4837,62,0.4988,31,0.4796,23
2010-05-24,0.5261,67,0.5083,67,0.6927,80,0.5599,47,0.458,41,0.4793,60,0.5448,47,0.5199,39
2010-04-26,0.2749,17,0.3938,38,0.4943,30,0.4901,27,0.4612,43,0.4639,51,0.4933,28,0.4901,28
2010-03-26,0.6807,84,0.5493,74,0.5131,36,0.4571,16,0.4655,44,0.4715,55,0.5131,37,0.461,16
2010-01-06,0.3445,31,0.3813,35,0.6545,73,0.6073,63,0.4175,22,0.4493,43,0.6545,82,0.6073,69
2009-12-07,0.355,33,0.3994,40,0.582,55,0.6,61,0.4514,38,0.4818,61,0.5948,66,0.6,66
2009-11-06,0.6533,81,0.6379,85,0.6859,79,0.6008,61,0.4489,37,0.4848,62,0.5926,65,0.6008,67
2009-09-15,0.411,46,0.4625,57,0.5921,57,0.5915,57,0.4748,48,0.5012,67,0.5921,65,0.5915,63
2009-08-17,0.3023,22,0.3635,30,0.6809,78,0.6166,66,0.5602,69,0.5727,78,0.6413,79,0.6046,68
2009-07-20,0.5764,73,0.7493,92,0.6342,68,0.7116,82,0.6568,84,0.6206,82,0.643,80,0.606,69
2009-06-04,0.5603,71,0.4639,57,0.7119,83,0.6941,80,0.7052,89,0.7227,92,0.6764,85,0.6899,84
2009-05-06,0.2854,18,0.4619,57,0.5943,57,0.7936,90,0.8029,97,0.8266,97,0.6453,80,0.7086,87
2009-03-17,0.5331,68,0.7141,90,0.689,80,0.9683,96,1.0827,100,1.0347,100,0.689,86,0.7707,93
2009-02-09,0.6021,77,0.5649,77,0.8394,94,0.8811,94,1.0572,100,1.0128,100,0.7639,95,0.7866,94
2008-09-23,0.7515,89,0.843,96,0.8052,92,0.7305,84,0.4526,39,0.4602,49,0.7483,93,0.6804,83
2008-08-25,0.5163,66,0.4207,46,0.5228,39,0.6126,64,0.4517,38,0.4329,33,0.5459,47,0.6126,71
2008-07-28,0.6923,85,0.5362,72,0.5984,59,0.5469,43,0.433,31,0.4264,30,0.5781,60,0.5469,46
2008-06-12,0.2795,17,0.4072,42,0.4549,15,0.4658,19,0.4116,17,0.437,36,0.4549,13,0.4546,13
2008-03-05,0.406,45,0.4301,49,0.4867,26,0.7093,82,0.3987,12,0.4463,42,0.4752,21,0.4618,16
2008-01-15,0.3743,37,0.5017,66,0.5097,35,0.4911,28,0.4223,26,0.4736,57,0.5097,36,0.4969,30
2007-12-13,0.1745,5,0.3116,17,0.5732,53,0.5666,49,0.4181,22,0.4541,45,0.505,35,0.523,39
2007-11-14,0.5504,70,0.5951,80,0.5755,53,0.5328,40,0.4318,30,0.4536,45,0.5329,43,0.496,30
2007-10-17,0.3903,41,0.3595,28,0.4932,28,0.5281,38,0.4359,32,0.4428,40,0.4932,28,0.5169,38
2007-08-29,0.3783,38,0.4235,47,0.61,62,0.5743,52,0.4086,16,0.4375,36,0.5471,48,0.5743,57
2007-07-18,0.2154,8,0.3223,19,0.4783,22,0.4759,22,0.386,7,0.3839,13,0.4783,22,0.4879,27
2007-06-01,0.3228,26,0.2682,8,0.5713,52,0.6051,62,0.3895,9,0.3834,13,0.5628,53,0.6051,68
2007-05-03,0.5758,73,0.6159,83,0.5462,46,0.5737,52,0.3955,10,0.3911,18,0.5423,46,0.5737,57
2007-04-04,0.2368,11,0.3177,18,0.6808,78,0.6179,66,0.3827,5,0.3728,9,0.6119,71,0.6179,72
2007-03-07,0.5476,70,0.4257,47,0.7078,83,0.5859,56,0.4022,13,0.3727,9,0.6218,75,0.5859,61
2006-12-14,0.5009,63,0.3255,20,0.5046,33,0.456,15,0.3804,5,0.3481,2,0.5046,34,0.4875,27
2006-09-05,0.3134,24,0.2906,13,0.5673,51,0.7172,83,0.383,6,0.3625,5,0.5467,47,0.5646,53
2006-05-15,0.3256,27,0.3661,31,0.5428,45,0.6936,80,0.4351,31,0.3969,20,0.5239,41,0.5274,41
2006-04-17,0.5101,64,0.4192,45,0.6112,62,0.6269,68,0.4911,51,0.4449,41,0.5692,56,0.569,54
2006-03-17,0.3052,22,0.3706,32,0.6249,66,0.6047,62,0.5261,60,0.4763,57,0.5818,61,0.5448,45
2006-02-16,0.8594,94,0.6065,82,0.6024,60,0.7583,87,0.5162,57,0.4667,52,0.5979,67,0.5907,63
2006-01-19,0.2702,16,0.27,8,0.6969,81,0.5056,32,0.4737,47,0.4473,42,0.5714,57,0.5919,64
2005-12-19,0.4761,57,0.4008,41,0.6272,67,0.6067,63,0.4923,51,0.4629,50,0.6121,72,0.6112,70
2005-11-18,0.3906,41,0.3921,38,0.7458,87,0.6722,77,0.539,63,0.4766,57,0.6979,88,0.6978,85
2005-10-21,0.729,87,0.7303,91,0.7878,91,0.7851,90,0.5566,68,0.5035,67,0.7725,95,0.7851,94
2005-09-22,0.5596,71,0.5074,67,0.6338,68,0.5768,53,0.5808,74,0.5154,69,0.6007,68,0.5898,62
2005-08-24,0.5325,68,0.4066,42,0.6055,61,0.5788,53,0.6361,82,0.586,79,0.6075,70,0.5868,61
2005-07-27,0.2393,11,0.3486,26,0.6801,78,0.6334,70,0.7246,91,0.715,91,0.6175,74,0.6229,74
2005-06-28,0.753,89,0.5296,71,0.5998,59,0.6203,67,0.7452,95,0.7434,95,0.6225,75,0.5862,61
2005-05-31,0.7268,87,0.6265,84,0.7556,88,0.6819,78,0.7245,91,0.752,96,0.7337,92,0.6992,86
2005-05-02,0.9707,96,0.6733,88,0.761,88,0.8617,94,0.7412,94,0.7487,95,0.7468,93,0.7532,91
2005-04-01,0.6539,81,0.6157,83,0.8397,94,0.848,94,0.7451,95,0.7562,96,0.6745,85,0.7142,88
2005-03-07,1.3687,100,1.7226,100,0.7551,88,0.7231,84,0.717,90,0.7211,92,0.7699,95,0.7055,86