Folder: option_data_downloader/data/iv_percentiles_symbols

File: TGA.csv
percentiles,hv10,hv120,hv150,hv180,hv20,hv30,hv60,hv90,ivcall10,ivcall1080,ivcall120,ivcall150,ivcall180,ivcall20,ivcall270,ivcall30,ivcall360,ivcall60,ivcall720,ivcall90,ivmean10,ivmean1080,ivmean120,ivmean150,ivmean180,ivmean20,ivmean270,ivmean30,ivmean360,ivmean60,ivmean720,ivmean90,ivput10,ivput1080,ivput120,ivput150,ivput180,ivput20,ivput270,ivput30,ivput360,ivput60,ivput720,ivput90,phv10,phv120,phv150,phv180,phv20,phv30,phv60,phv90
0,0.12348,0.344465,0.36467,0.371295,0.19155,0.22576,0.286145,0.318575,0.3732,0.38072,0.378515,0.38214,0.379875,0.373785,0.38072,0.3747,0.38072,0.37766,0.38072,0.378515,0.39782,0.40128,0.40034,0.40132,0.40032,0.39782,0.40128,0.3969,0.40128,0.40074,0.40128,0.40022,0.391266,0.399744,0.401305,0.402293,0.400205,0.391561,0.399744,0.391561,0.399744,0.398191,0.399744,0.399861,0.205155,0.3365,0.338495,0.346285,0.23849,0.259795,0.295315,0.33149
5,0.19797,0.37827,0.3832,0.3853,0.26174,0.29652,0.33797,0.36487,0.42569,0.4366,0.43368,0.4364,0.4374,0.42579,0.4366,0.42609,0.4366,0.42707,0.4366,0.43007,0.43392,0.4405,0.4375,0.43946,0.44006,0.43392,0.4405,0.43376,0.4405,0.4339,0.4405,0.4361,0.425532,0.4402,0.436798,0.438132,0.439166,0.426328,0.4402,0.42833,0.4402,0.4326,0.4402,0.4358,0.26244,0.35257,0.36047,0.36567,0.2847,0.3009,0.33187,0.34497
10,0.24229,0.3893,0.395445,0.3979,0.29719,0.32609,0.3604,0.3808,0.445915,0.452,0.451315,0.450515,0.451915,0.446,0.452,0.4461,0.452,0.4461,0.452,0.44902,0.454,0.45262,0.45236,0.45096,0.45202,0.45352,0.45262,0.45316,0.45262,0.45266,0.45262,0.45322,0.446942,0.452142,0.4492,0.4509,0.4522,0.447671,0.452142,0.4484,0.452142,0.448671,0.452142,0.449413,0.285245,0.366735,0.375745,0.3796,0.30959,0.32747,0.350845,0.3557
15,0.27392,0.40014,0.406,0.40962,0.32522,0.34502,0.3745,0.38962,0.4605,0.46404,0.4641,0.46368,0.4632,0.46064,0.46404,0.4606,0.46404,0.4611,0.46404,0.46334,0.46606,0.46336,0.4639,0.4629,0.4638,0.46566,0.46336,0.46516,0.46336,0.4644,0.46336,0.46492,0.458828,0.463204,0.462376,0.462976,0.463528,0.459628,0.463204,0.4589,0.463204,0.459552,0.463204,0.462076,0.30994,0.38334,0.3857,0.3888,0.3355,0.3491,0.3645,0.3694
20,0.301595,0.4125,0.414795,0.4169,0.348995,0.36577,0.385195,0.4003,0.47703,0.475965,0.475865,0.474495,0.4751,0.47703,0.475965,0.4766,0.475965,0.47673,0.475965,0.4764,0.4759,0.47666,0.47476,0.4743,0.47516,0.47596,0.47666,0.47542,0.47666,0.4746,0.47666,0.474,0.4736,0.474781,0.4757,0.475281,0.474781,0.4737,0.474781,0.4739,0.474781,0.472681,0.474781,0.473562,0.3312,0.3945,0.397895,0.3985,0.3554,0.366,0.376895,0.3883
25,0.32382,0.4213,0.4254,0.424,0.36918,0.38497,0.39724,0.412,0.4878,0.48847,0.48739,0.4869,0.4875,0.4876,0.48847,0.4878,0.48847,0.4875,0.48847,0.48725,0.48632,0.4871,0.48636,0.486,0.4857,0.4866,0.4871,0.48626,0.4871,0.48566,0.4871,0.48632,0.486786,0.4869,0.486386,0.4856,0.485286,0.487486,0.4869,0.488758,0.4869,0.486186,0.4869,0.485386,0.3499,0.40207,0.4088,0.4159,0.37164,0.3807,0.39147,0.40174
30,0.347935,0.429545,0.4325,0.435145,0.3864,0.3998,0.4125,0.4222,0.50043,0.4988,0.498015,0.498415,0.4983,0.49939,0.4988,0.49893,0.4988,0.4983,0.4988,0.4977,0.50006,0.49776,0.4963,0.49672,0.49686,0.4994,0.49776,0.4994,0.49776,0.49656,0.49776,0.49766,0.501791,0.499691,0.4989,0.499264,0.498982,0.502182,0.499691,0.502937,0.499691,0.4992,0.499691,0.499355,0.368745,0.413745,0.420945,0.4288,0.38749,0.397,0.4044,0.413145
35,0.37132,0.44174,0.4421,0.44732,0.40252,0.4161,0.42812,0.4352,0.51442,0.51012,0.51344,0.5113,0.51146,0.51524,0.51012,0.51424,0.51012,0.5153,0.51012,0.51584,0.51806,0.51126,0.5118,0.51046,0.51226,0.5185,0.51126,0.51796,0.51126,0.51416,0.51126,0.51284,0.521096,0.5134,0.514292,0.5126,0.5142,0.52178,0.5134,0.520996,0.5134,0.521988,0.5134,0.518792,0.3875,0.43032,0.4339,0.4377,0.4042,0.4097,0.41714,0.4232
40,0.39239,0.4518,0.452,0.4581,0.42309,0.43029,0.440695,0.447595,0.530065,0.52613,0.532265,0.530765,0.52883,0.52993,0.52613,0.53073,0.52613,0.532065,0.52613,0.53263,0.53782,0.52916,0.5399,0.5376,0.53364,0.53688,0.52916,0.53812,0.52916,0.53846,0.52916,0.54014,0.5415,0.530501,0.539602,0.534302,0.5327,0.541701,0.530501,0.540902,0.530501,0.5399,0.530501,0.5411,0.404,0.4421,0.4464,0.445895,0.41999,0.422995,0.431095,0.4365
45,0.4129,0.46148,0.46497,0.4721,0.44278,0.4474,0.45817,0.46177,0.54915,0.54469,0.55219,0.55,0.5476,0.54859,0.54469,0.54869,0.54469,0.5509,0.54469,0.5529,0.55622,0.5488,0.5587,0.55694,0.55396,0.5553,0.5488,0.5549,0.5488,0.55886,0.5488,0.5599,0.558006,0.548412,0.555436,0.553806,0.5514,0.557012,0.548412,0.5558,0.548412,0.557212,0.548412,0.557912,0.42267,0.45591,0.4543,0.45657,0.43367,0.4366,0.4418,0.4473
50,0.43979,0.474345,0.4804,0.4923,0.4635,0.464845,0.47859,0.4752,0.568315,0.55843,0.566645,0.5647,0.561915,0.567415,0.55843,0.56693,0.55843,0.569715,0.55843,0.569145,0.57632,0.5631,0.56992,0.5684,0.56606,0.57484,0.5631,0.5727,0.5631,0.57464,0.5631,0.57312,0.573211,0.5617,0.5685,0.566611,0.564122,0.5732,0.5617,0.5719,0.5617,0.571411,0.5617,0.5702,0.439745,0.464845,0.4647,0.46449,0.450545,0.45269,0.45829,0.46279
55,0.46602,0.4893,0.5019,0.5133,0.48252,0.48812,0.49532,0.4924,0.5876,0.57034,0.5811,0.5772,0.57344,0.5871,0.57034,0.58572,0.57034,0.5847,0.57034,0.58258,0.59136,0.574,0.58376,0.5807,0.5768,0.58998,0.574,0.58856,0.574,0.58792,0.574,0.58706,0.5877,0.573332,0.5792,0.579716,0.5749,0.587016,0.573332,0.585916,0.573332,0.584216,0.573332,0.582816,0.4595,0.47454,0.4741,0.4733,0.4655,0.471,0.47912,0.47642
60,0.49379,0.50349,0.52138,0.5324,0.506395,0.510895,0.512295,0.5053,0.60893,0.582465,0.596125,0.592665,0.5878,0.608365,0.582465,0.60696,0.582465,0.60253,0.582465,0.6003,0.60776,0.58738,0.59674,0.5934,0.58972,0.6066,0.58738,0.60498,0.58738,0.6017,0.58738,0.60002,0.601621,0.588,0.591121,0.589242,0.587542,0.600821,0.588,0.59881,0.588,0.595242,0.588,0.593821,0.47919,0.484295,0.485995,0.4835,0.4829,0.49009,0.4961,0.4898
65,0.5225,0.53806,0.54964,0.55137,0.5331,0.53997,0.53541,0.51954,0.62678,0.59707,0.61149,0.60558,0.60066,0.62569,0.59707,0.62488,0.59707,0.61979,0.59707,0.61768,0.62726,0.60046,0.60786,0.6041,0.60226,0.62626,0.60046,0.62406,0.60046,0.61846,0.60046,0.61318,0.620152,0.600526,0.6051,0.601226,0.601126,0.619452,0.600526,0.615552,0.600526,0.611,0.600526,0.6083,0.50344,0.50117,0.4997,0.50085,0.50117,0.50834,0.51207,0.50084
70,0.560345,0.576945,0.573535,0.571,0.566445,0.562145,0.563345,0.5621,0.6457,0.6119,0.626715,0.61973,0.614315,0.644245,0.6119,0.643015,0.6119,0.638315,0.6119,0.6332,0.64656,0.61326,0.62432,0.62012,0.61444,0.64542,0.61326,0.64342,0.61326,0.63492,0.61326,0.63118,0.642255,0.613662,0.621262,0.618331,0.614731,0.6393,0.613662,0.636231,0.613662,0.627793,0.613662,0.624431,0.533245,0.522635,0.523645,0.533225,0.526845,0.5305,0.5299,0.5185
75,0.60128,0.6036,0.60168,0.5981,0.59732,0.59812,0.59064,0.6105,0.67218,0.62804,0.64432,0.63798,0.63228,0.67134,0.62804,0.66894,0.62804,0.66268,0.62804,0.65304,0.6709,0.63438,0.64406,0.63982,0.6363,0.66952,0.63438,0.66608,0.63438,0.6596,0.63438,0.65108,0.670744,0.633844,0.645236,0.639824,0.636816,0.66816,0.633844,0.662936,0.633844,0.655944,0.633844,0.652036,0.5622,0.55082,0.5599,0.56194,0.5644,0.55994,0.54504,0.55332
80,0.65409,0.632695,0.632095,0.628295,0.637575,0.639985,0.64469,0.6397,0.70156,0.652265,0.67309,0.66558,0.65636,0.70066,0.652265,0.698265,0.652265,0.68893,0.652265,0.68238,0.7069,0.6607,0.67868,0.67222,0.66442,0.70596,0.6607,0.7048,0.6607,0.6934,0.6607,0.68614,0.706605,0.669541,0.680446,0.673,0.669541,0.703741,0.669541,0.701441,0.669541,0.697564,0.669541,0.691664,0.603195,0.59938,0.607175,0.61828,0.60338,0.5961,0.585885,0.591995
85,0.71695,0.67297,0.67107,0.68477,0.70351,0.70947,0.68461,0.6751,0.73978,0.68938,0.70655,0.69814,0.69199,0.73783,0.68938,0.73567,0.68938,0.72504,0.68938,0.71622,0.74908,0.6948,0.71068,0.7013,0.69564,0.74702,0.6948,0.7428,0.6948,0.72926,0.6948,0.72182,0.749592,0.705946,0.71323,0.706,0.705468,0.746046,0.705946,0.744246,0.705946,0.735598,0.705946,0.725684,0.65633,0.65157,0.65544,0.6529,0.65177,0.63704,0.62431,0.64428
90,0.80188,0.7405,0.733,0.725275,0.785335,0.7688,0.746515,0.74525,0.801,0.72978,0.74862,0.738145,0.731575,0.799015,0.72978,0.79653,0.72978,0.77335,0.72978,0.75773,0.80338,0.74926,0.75458,0.74786,0.74226,0.80126,0.74926,0.79684,0.74926,0.78206,0.74926,0.76274,0.814814,0.756451,0.764257,0.756155,0.753857,0.810412,0.756451,0.807951,0.756451,0.795159,0.756451,0.772655,0.74036,0.6997,0.724295,0.717845,0.71719,0.700125,0.70129,0.69978
95,0.99738,0.8245,0.78836,0.79276,0.93148,0.88012,0.87376,0.85582,0.90426,0.80408,0.82526,0.81094,0.8054,0.90134,0.80408,0.89208,0.80408,0.85468,0.80408,0.83786,0.9935,0.91364,1.01936,0.98972,0.94548,0.9759,0.91364,0.97176,0.91364,0.99404,0.91364,1.04268,1.06162,0.98626,1.1186,1.06682,1.00965,1.04201,0.98626,1.01791,0.98626,1.10707,0.98626,1.242328,0.88242,0.81332,0.78172,0.77818,0.85152,0.84616,0.86356,0.85136
98,1.31253,1.14494,1.077405,1.053,1.2099,1.1871,1.230745,1.188165,1.08662,0.95999,0.95872,0.947035,0.95999,1.0752,0.95999,1.04865,0.95999,1.00665,0.95999,0.977205,2.09904,1.53146,1.53882,1.46434,1.51,2.0464,1.53146,1.7974,1.53146,2.19608,1.53146,1.69068,3.25557,2.35289,2.295,2.23834,2.26343,3.1528,2.35289,2.80287,2.35289,3.37725,2.35289,2.57902,1.16358,1.07731,1.055115,1.011605,1.18443,1.19103,1.12751,1.12867